#Wave		#Intensity
101.343750	54637.238281
102.465820	54015.730469
103.587891	53843.363281
104.709961	52855.300781
105.832031	52357.214844
106.953125	51939.199219
108.074219	51108.507812
109.195312	50745.839844
110.316406	50583.785156
111.436523	49901.832031
112.556641	49639.136719
113.676758	49543.726562
114.796875	49276.386719
115.916992	48812.464844
117.036133	48506.914062
118.155273	48029.257812
119.274414	47962.480469
120.393555	47495.703125
121.511719	47670.160156
122.630859	47674.800781
123.749023	46946.113281
124.866211	47442.566406
125.984375	46930.500000
127.101562	47122.898438
128.219727	47254.957031
129.335938	46964.105469
130.453125	47367.015625
131.570312	47208.156250
132.686523	46793.968750
133.802734	46955.191406
134.918945	46932.796875
136.035156	46634.812500
137.150391	46410.664062
138.265625	46444.175781
139.380859	45540.656250
140.496094	44773.558594
141.610352	44593.726562
142.725586	43884.468750
143.839844	43179.429688
144.954102	42505.531250
146.067383	41277.031250
147.181641	40611.488281
148.294922	39629.125000
149.408203	38417.332031
150.521484	37418.445312
151.633789	36576.429688
152.747070	35792.507812
153.859375	34684.675781
154.971680	33268.480469
156.083984	32562.158203
157.195312	31639.703125
158.306641	30674.162109
159.418945	29960.189453
160.529297	29446.179688
161.640625	28963.478516
162.750977	28415.318359
163.862305	28119.078125
164.972656	27676.371094
166.082031	27026.308594
167.192383	27171.105469
168.301758	27074.902344
169.411133	26859.234375
170.520508	26409.097656
171.629883	26285.638672
172.738281	26058.421875
173.847656	26187.406250
174.956055	26036.765625
176.063477	25547.687500
177.171875	25647.314453
178.279297	25561.925781
179.387695	25679.646484
180.495117	25587.457031
181.601562	25581.035156
182.708984	25265.203125
183.815430	25446.201172
184.921875	25403.595703
186.028320	25620.841797
187.134766	25232.445312
188.240234	25560.507812
189.345703	26108.013672
190.452148	25984.076172
191.556641	25778.660156
192.662109	25774.511719
193.766602	25704.740234
194.871094	25951.785156
195.975586	25893.337891
197.080078	26151.830078
198.184570	26285.873047
199.288086	26528.681641
200.391602	26644.722656
201.495117	26609.001953
202.598633	26969.845703
203.701172	27242.429688
204.803711	27533.251953
205.906250	27713.076172
207.008789	27892.968750
208.111328	28063.853516
209.212891	28434.453125
210.314453	28521.542969
211.416016	29021.736328
212.517578	29272.412109
213.618164	29550.427734
214.719727	29971.615234
215.820312	30349.804688
216.919922	30160.191406
218.020508	30818.039062
219.121094	31542.042969
220.220703	31759.421875
221.320312	32151.943359
222.419922	32394.533203
223.518555	32866.921875
224.618164	33237.125000
225.716797	33926.000000
226.815430	34150.894531
227.913086	34250.691406
229.011719	35538.871094
230.109375	35691.332031
231.207031	36360.820312
232.304688	36891.613281
233.402344	37272.238281
234.499023	37990.253906
235.596680	38662.953125
236.693359	39215.093750
237.789062	39400.363281
238.885742	39932.324219
239.981445	40222.714844
241.078125	41282.003906
242.173828	41994.871094
243.268555	42500.332031
244.364258	42709.250000
245.458984	43858.839844
246.553711	44355.800781
247.648438	44836.960938
248.743164	45156.117188
249.836914	45955.183594
250.931641	46443.769531
252.025391	47323.375000
253.119141	47974.707031
254.211914	48422.789062
255.305664	49218.644531
256.398438	50168.050781
257.491211	50829.558594
258.583984	51376.902344
259.675781	52373.019531
260.768555	53394.695312
261.860352	54302.277344
262.952148	55175.851562
264.042969	56386.437500
265.134766	56905.656250
266.225586	57997.878906
267.316406	58501.550781
268.407227	59282.757812
269.498047	60380.621094
270.587891	61084.511719
271.678711	61410.253906
272.768555	61536.550781
273.857422	62013.917969
274.947266	62876.968750
276.036133	62521.628906
277.125977	62333.726562
278.214844	61704.921875
279.302734	60841.640625
280.391602	59821.839844
281.479492	59143.949219
282.567383	57794.863281
283.655273	55806.375000
284.743164	54315.925781
285.831055	52374.304688
286.917969	51124.082031
288.004883	48820.035156
289.091797	46616.328125
290.178711	45028.390625
291.264648	42811.625000
292.350586	40872.519531
293.436523	39261.875000
294.522461	37698.972656
295.608398	35833.792969
296.693359	34645.101562
297.778320	33426.007812
298.863281	31985.248047
299.948242	30380.310547
301.033203	29876.609375
302.117188	28828.607422
303.201172	28015.419922
304.285156	27054.312500
305.369141	26318.914062
306.452148	25548.626953
307.536133	24761.894531
308.619141	24364.941406
309.702148	23778.535156
310.784180	23270.412109
311.867188	23060.017578
312.949219	22600.072266
314.031250	22093.748047
315.113281	21668.107422
316.195312	21260.794922
317.276367	21253.242188
318.357422	20848.007812
319.438477	20743.248047
320.519531	20710.146484
321.600586	20394.800781
322.680664	20132.552734
323.760742	19867.890625
324.840820	19860.056641
325.920898	19785.082031
327.000977	19809.646484
328.080078	19361.755859
329.159180	19163.871094
330.238281	19132.724609
331.317383	19029.730469
332.395508	19214.095703
333.474609	18812.029297
334.552734	18961.642578
335.630859	18758.814453
336.708008	18741.468750
337.786133	18789.072266
338.863281	18479.357422
339.940430	18636.007812
341.017578	18377.212891
342.094727	18371.380859
343.170898	18525.773438
344.247070	18369.001953
345.323242	18188.939453
346.399414	18220.240234
347.475586	18300.353516
348.550781	18166.660156
349.626953	17958.523438
350.702148	18264.169922
351.776367	17930.390625
352.851562	18117.517578
353.925781	18023.208984
355.000000	18205.767578
356.074219	17927.580078
357.148438	18166.054688
358.222656	18113.587891
359.295898	18240.410156
360.369141	18134.369141
361.442383	18244.933594
362.515625	18318.257812
363.587891	18335.679688
364.661133	18339.123047
365.733398	18382.197266
366.805664	18672.451172
367.876953	18302.810547
368.949219	18443.869141
370.020508	18752.958984
371.091797	18730.808594
372.163086	18610.626953
373.234375	18751.845703
374.304688	18638.625000
375.375977	18863.968750
376.446289	18874.513672
377.515625	18903.751953
378.585938	19007.767578
379.655273	18985.626953
380.725586	19150.468750
381.794922	19002.099609
382.864258	19447.599609
383.932617	19483.988281
385.001953	19232.671875
386.070312	19306.466797
387.138672	19635.351562
388.207031	19608.605469
389.274414	19647.394531
390.341797	20039.744141
391.410156	19905.332031
392.477539	20012.121094
393.543945	20011.185547
394.611328	19729.074219
395.677734	20194.451172
396.744141	20280.273438
397.810547	20260.626953
398.876953	20391.044922
399.943359	20230.691406
401.008789	20612.146484
402.074219	20604.275391
403.139648	20521.308594
404.205078	20741.080078
405.269531	20458.566406
406.334961	20852.156250
407.399414	20846.666016
408.463867	20589.847656
409.527344	20920.250000
410.591797	20606.953125
411.655273	20770.619141
412.718750	20668.730469
413.782227	20691.404297
414.845703	20446.019531
415.908203	20666.220703
416.971680	20378.394531
418.034180	20313.974609
419.095703	20310.714844
420.158203	20234.488281
421.220703	20231.208984
422.282227	19971.283203
423.343750	19951.466797
424.405273	19912.798828
425.465820	19744.542969
426.527344	19573.865234
427.587891	19855.621094
428.648438	19215.818359
429.708984	19316.072266
430.769531	19270.162109
431.829102	19066.212891
432.888672	19232.542969
433.948242	18976.603516
435.007812	18626.171875
436.067383	18712.261719
437.125977	18574.113281
438.184570	18565.775391
439.243164	18311.830078
440.301758	18319.972656
441.360352	18285.593750
442.417969	18133.054688
443.475586	17885.923828
444.533203	17964.904297
445.590820	18143.210938
446.648438	17995.257812
447.705078	17823.597656
448.761719	17942.835938
449.818359	17889.400391
450.875000	17968.464844
451.931641	17933.945312
452.987305	17908.882812
454.042969	17855.398438
455.098633	17562.701172
456.154297	17881.007812
457.209961	17801.423828
458.264648	17788.158203
459.319336	17464.416016
460.374023	17709.457031
461.428711	17579.990234
462.483398	17557.183594
463.537109	17503.533203
464.590820	17371.580078
465.644531	17590.728516
466.698242	17612.992188
467.750977	17575.923828
468.804688	17484.240234
469.857422	17665.578125
470.910156	17564.376953
471.962891	17700.666016
473.014648	17637.441406
474.067383	17569.441406
475.119141	17506.169922
476.170898	17516.560547
477.221680	17519.822266
478.273438	17634.849609
479.324219	17828.404297
480.375000	17812.691406
481.425781	17716.078125
482.476562	17571.833984
483.527344	17832.162109
484.577148	17785.488281
485.626953	17769.750000
486.676758	17568.250000
487.726562	17676.324219
488.776367	17379.433594
489.825195	17787.746094
490.874023	17693.341797
491.922852	17670.412109
492.971680	17749.992188
494.019531	17676.986328
495.068359	17644.498047
496.116211	17914.953125
497.164062	17682.078125
498.211914	17723.548828
499.258789	17679.107422
500.305664	17880.537109
501.353516	17840.882812
502.400391	17817.927734
503.446289	17763.914062
504.493164	17502.033203
505.539062	17452.718750
506.584961	17718.851562
507.630859	17714.972656
508.676758	17806.724609
509.722656	17573.298828
510.767578	17679.406250
511.812500	17764.023438
512.857422	17406.042969
513.902344	17516.960938
514.947266	17733.234375
515.991211	17695.830078
517.035156	17656.017578
518.079102	17759.876953
519.123047	17715.269531
520.166992	17670.644531
521.209961	17321.693359
522.252930	17492.667969
523.295898	17646.927734
524.338867	18038.593750
525.381836	17792.558594
526.423828	17812.648438
527.465820	17633.644531
528.507812	17848.048828
529.549805	17769.771484
530.590820	17569.054688
531.632812	17934.802734
532.673828	18038.972656
533.714844	18066.333984
534.755859	18266.640625
535.796875	18229.187500
536.836914	18160.484375
537.876953	18055.703125
538.916992	18438.837891
539.957031	18129.714844
540.997070	18373.535156
542.036133	18564.535156
543.075195	18592.029297
544.114258	18241.802734
545.153320	18428.068359
546.192383	18243.750000
547.230469	18694.882812
548.269531	18498.505859
549.307617	18460.994141
550.344727	18404.199219
551.382812	18576.240234
552.420898	18557.996094
553.458008	18665.060547
554.495117	18403.373047
555.532227	18471.873047
556.568359	18682.664062
557.605469	18428.068359
558.641602	18795.718750
559.677734	18340.798828
560.713867	18361.085938
561.750000	18451.369141
562.785156	18297.876953
563.821289	18470.271484
564.856445	18208.054688
565.891602	18305.621094
566.925781	18335.580078
567.960938	18285.816406
568.995117	18252.949219
570.029297	18466.613281
571.063477	18189.593750
572.097656	18040.623047
573.130859	17976.244141
574.165039	18231.130859
575.198242	18399.017578
576.231445	18351.603516
577.264648	18505.050781
578.296875	18322.078125
579.330078	18422.310547
580.362305	18311.902344
581.394531	18509.046875
582.425781	18430.103516
583.458008	18307.517578
584.489258	18492.652344
585.521484	18491.222656
586.552734	18492.212891
587.583008	18607.166016
588.614258	18457.818359
589.644531	18521.867188
590.675781	18425.820312
591.706055	18417.091797
592.736328	18636.490234
593.765625	18426.320312
594.795898	18487.990234
595.825195	18311.710938
596.854492	18659.970703
597.883789	18471.509766
598.912109	18144.490234
599.941406	18624.134766
600.969727	18564.376953
601.998047	18786.591797
603.026367	18736.566406
604.054688	18389.833984
605.082031	18733.751953
606.110352	18489.064453
607.137695	18531.406250
608.165039	18819.564453
609.191406	18414.103516
610.218750	18444.279297
611.245117	18340.541016
612.271484	18563.113281
613.297852	18508.074219
614.324219	18294.650391
615.349609	18653.798828
616.375977	18501.251953
617.401367	18738.681641
618.426758	18566.587891
619.452148	18484.658203
620.476562	18473.431641
621.501953	18481.714844
622.526367	18685.195312
623.550781	18547.095703
624.575195	18535.867188
625.598633	18817.589844
626.623047	18515.837891
627.646484	18587.628906
628.669922	18468.919922
629.693359	18562.716797
630.716797	18490.384766
631.739258	18728.412109
632.761719	18387.193359
633.784180	18882.003906
634.806641	18755.876953
635.829102	18678.617188
636.850586	18706.517578
637.873047	18815.169922
638.894531	18909.175781
639.916016	18758.457031
640.937500	18615.025391
641.958008	18701.699219
642.978516	18717.384766
644.000000	19012.308594
645.020508	18702.222656
646.040039	19085.460938
647.060547	18939.474609
648.080078	18913.542969
649.099609	18907.214844
650.119141	18731.687500
651.138672	18909.263672
652.158203	18726.310547
653.176758	18609.535156
654.195312	18882.886719
655.214844	18744.003906
656.232422	18465.144531
657.250977	18782.812500
658.268555	18634.009766
659.287109	18337.781250
660.304688	18913.542969
661.322266	18784.335938
662.338867	18561.695312
663.356445	18683.087891
664.373047	18811.900391
665.389648	18525.207031
666.406250	18577.796875
667.422852	18859.164062
668.439453	18655.966797
669.455078	18706.144531
670.470703	18657.896484
671.486328	18683.476562
672.501953	18733.685547
673.516602	18722.347656
674.532227	18545.990234
675.546875	18955.855469
676.561523	18380.328125
677.576172	18534.023438
678.590820	18515.242188
679.604492	18696.134766
680.618164	18672.441406
681.631836	18720.257812
682.645508	18610.230469
683.659180	18470.556641
684.671875	18528.228516
685.685547	18701.914062
686.698242	18490.593750
687.710938	18893.935547
688.723633	18717.142578
689.735352	18745.271484
690.747070	18716.595703
691.759766	18638.496094
692.771484	18992.806641
693.782227	18845.523438
694.793945	18621.554688
695.804688	18669.470703
696.816406	19088.339844
697.827148	18683.734375
698.837891	18840.533203
699.847656	18650.992188
700.858398	18599.964844
701.868164	18801.386719
702.877930	18898.904297
703.887695	18917.220703
704.897461	18796.859375
705.906250	18936.535156
706.915039	18610.503906
707.924805	18638.691406
708.933594	18433.921875
709.941406	18690.134766
710.950195	18867.103516
711.958008	18925.111328
712.965820	18767.363281
713.973633	18961.806641
714.981445	19151.355469
715.989258	18750.373047
716.996094	18949.878906
718.003906	18851.566406
719.010742	19023.851562
720.016602	19171.365234
721.023438	18899.171875
722.030273	19056.652344
723.036133	18834.029297
724.041992	19098.416016
725.047852	18888.144531
726.053711	18794.642578
727.058594	19280.462891
728.064453	19321.292969
729.069336	19282.539062
730.074219	19445.289062
731.079102	19117.894531
732.083008	19061.656250
733.087891	19174.667969
734.091797	19459.507812
735.095703	19532.789062
736.099609	19496.507812
737.102539	19442.775391
738.106445	19473.734375
739.109375	19776.328125
740.112305	19612.947266
741.115234	19626.501953
742.118164	19632.580078
743.121094	19546.388672
744.123047	19530.003906
745.125000	19431.287109
746.126953	19489.728516
747.128906	19563.164062
748.129883	19591.695312
749.131836	19550.333984
750.132812	19701.224609
751.133789	19617.410156
752.134766	19685.935547
753.135742	19482.166016
754.135742	19525.701172
755.136719	19631.734375
756.136719	19522.828125
757.136719	19563.892578
758.135742	19447.431641
759.135742	19701.087891
760.134766	19384.482422
761.133789	19297.945312
762.132812	19826.982422
763.131836	19555.277344
764.130859	19628.937500
765.128906	19700.119141
766.127930	19385.666016
767.125977	19692.273438
768.123047	19543.046875
769.121094	19859.816406
770.119141	19865.941406
771.116211	19691.595703
772.113281	19597.410156
773.110352	19791.548828
774.107422	19990.775391
775.103516	19999.433594
776.100586	19606.677734
777.096680	19693.056641
778.092773	19566.136719
779.088867	19853.355469
780.083984	19814.289062
781.080078	19722.474609
782.075195	19921.970703
783.070312	19920.574219
784.065430	19848.826172
785.060547	19990.652344
786.054688	19871.134766
787.049805	19997.931641
788.043945	19958.828125
789.038086	19768.820312
790.032227	19827.753906
791.025391	19665.326172
792.019531	19860.132812
793.012695	20092.759766
794.005859	19804.433594
794.999023	19823.140625
795.992188	19922.431641
796.984375	20024.275391
797.976562	19980.058594
798.968750	19988.730469
799.960938	19909.210938
800.953125	19998.521484
801.945312	19808.058594
802.936523	19912.509766
803.927734	20039.691406
804.918945	19995.414062
805.910156	19847.693359
806.901367	20282.742188
807.891602	19960.896484
808.882812	20179.060547
809.873047	20003.494141
810.863281	20148.521484
811.852539	19982.984375
812.842773	19991.666016
813.832031	20149.400391
814.821289	20309.716797
815.810547	20111.232422
816.799805	20387.869141
817.789062	20242.414062
818.777344	19871.865234
819.765625	20424.267578
820.754883	20359.681641
821.742188	20444.335938
822.730469	20455.638672
823.718750	20659.289062
824.706055	20356.750000
825.693359	20408.548828
826.680664	20407.189453
827.667969	20281.726562
828.654297	20211.945312
829.641602	20390.431641
830.627930	20733.695312
831.614258	20456.125000
832.600586	20178.453125
833.586914	20681.595703
834.572266	20715.777344
835.558594	20582.572266
836.543945	20482.294922
837.529297	20673.767578
838.513672	20680.054688
839.499023	20600.042969
840.483398	20601.240234
841.468750	20866.503906
842.453125	20623.947266
843.437500	20769.927734
844.420898	20915.960938
845.405273	20874.015625
846.388672	20783.765625
847.372070	20495.214844
848.355469	21048.076172
849.338867	20762.009766
850.321289	20875.130859
851.304688	20683.046875
852.287109	20724.955078
853.269531	20751.611328
854.251953	21073.507812
855.234375	20705.671875
856.215820	20663.593750
857.197266	20649.509766
858.179688	20737.298828
859.160156	20639.156250
860.141602	20428.871094
861.123047	20733.273438
862.103516	20449.011719
863.083984	20442.515625
864.064453	20642.544922
865.044922	20233.150391
866.025391	20703.580078
867.004883	20704.775391
867.985352	20575.839844
868.964844	20880.703125
869.944336	20784.933594
870.923828	20551.267578
871.902344	20743.939453
872.881836	20788.552734
873.860352	20728.453125
874.838867	20668.332031
875.817383	20792.167969
876.794922	20609.359375
877.773438	20937.720703
878.750977	20869.919922
879.728516	20646.111328
880.706055	20634.498047
881.683594	20927.285156
882.661133	20649.632812
883.637695	20968.117188
884.614258	20777.390625
885.590820	20811.863281
886.567383	20918.037109
887.543945	20929.498047
888.519531	20666.908203
889.496094	21008.791016
890.471680	21197.062500
891.447266	21285.458984
892.421875	21409.771484
893.397461	21290.585938
894.373047	21271.353516
895.347656	21311.097656
896.322266	21004.583984
897.296875	21105.863281
898.270508	21137.898438
899.245117	21085.253906
900.218750	21258.470703
901.192383	21008.144531
902.166016	20986.259766
903.139648	21005.455078
904.113281	21040.070312
905.085938	20876.873047
906.059570	21286.636719
907.032227	21102.863281
908.003906	21271.183594
908.976562	21159.326172
909.949219	21206.857422
910.920898	21393.289062
911.892578	21178.494141
912.864258	21009.931641
913.835938	21276.199219
914.807617	21421.593750
915.778320	21150.011719
916.750000	21573.501953
917.720703	21585.115234
918.691406	21759.000000
919.661133	21641.843750
920.631836	21926.589844
921.601562	21665.107422
922.571289	21859.746094
923.541992	21665.181641
924.510742	21978.498047
925.480469	22503.392578
926.450195	22290.781250
927.418945	22039.394531
928.387695	22120.773438
929.356445	22124.755859
930.325195	22456.554688
931.292969	22323.771484
932.261719	22436.240234
933.229492	22445.445312
934.197266	22384.910156
935.165039	22386.357422
936.132812	22625.531250
937.099609	22386.664062
938.067383	22538.035156
939.034180	22557.603516
940.000977	22587.521484
940.967773	22751.939453
941.933594	22587.890625
942.900391	22853.267578
943.866211	22508.037109
944.832031	22719.142578
945.797852	22492.837891
946.763672	22859.361328
947.728516	22754.710938
948.694336	22950.466797
949.659180	23081.529297
950.624023	22722.941406
951.588867	23063.916016
952.553711	23202.843750
953.517578	23318.488281
954.481445	23488.621094
955.446289	23459.130859
956.409180	23424.441406
957.373047	23550.580078
958.336914	23443.240234
959.299805	23748.494141
960.263672	23776.123047
961.226562	23956.931641
962.189453	23974.218750
963.151367	23869.449219
964.114258	24239.986328
965.076172	24218.361328
966.039062	24144.757812
967.000977	24455.765625
967.961914	24379.576172
968.923828	24755.732422
969.885742	24645.763672
970.846680	25055.912109
971.807617	24542.761719
972.768555	24549.769531
973.729492	24952.310547
974.689453	24975.007812
975.650391	25398.591797
976.610352	25369.304688
977.570312	25488.435547
978.530273	25404.455078
979.490234	25752.871094
980.449219	25543.845703
981.409180	25910.650391
982.368164	25732.851562
983.327148	25886.058594
984.286133	26130.576172
985.245117	26028.343750
986.203125	26030.402344
987.161133	26191.595703
988.119141	25927.544922
989.077148	25966.119141
990.035156	26161.314453
990.993164	26301.755859
991.950195	26316.914062
992.908203	26285.070312
993.865234	26522.250000
994.822266	26046.310547
995.778320	26273.078125
996.735352	26107.914062
997.691406	26366.138672
998.647461	26315.960938
999.604492	26412.195312
1000.559570	26691.531250
1001.515625	26296.103516
1002.471680	26525.808594
1003.426758	26062.171875
1004.381836	25708.291016
1005.336914	25744.306641
1006.291992	25403.328125
1007.247070	24763.710938
1008.201172	24933.144531
1009.155273	24832.828125
1010.109375	24685.316406
1011.063477	24349.078125
1012.017578	24439.927734
1012.971680	24368.281250
1013.924805	24102.593750
1014.877930	23978.414062
1015.831055	24027.291016
1016.784180	23821.730469
1017.737305	23356.347656
1018.690430	23355.277344
1019.642578	23430.322266
1020.594727	23345.259766
1021.546875	23331.054688
1022.499023	23046.361328
1023.451172	23131.906250
1024.402344	23183.328125
1025.353516	23000.923828
1026.305664	22797.427734
1027.256836	22762.078125
1028.207031	23121.046875
1029.158203	22972.677734
1030.108398	22306.179688
1031.059570	22539.001953
1032.009766	22519.353516
1032.959961	22560.214844
1033.909180	22140.542969
1034.859375	21999.728516
1035.808594	22103.701172
1036.758789	21983.892578
1037.708008	22074.728516
1038.657227	21920.628906
1039.605469	21758.570312
1040.554688	21788.806641
1041.502930	21808.509766
1042.451172	21778.138672
1043.399414	21763.572266
1044.347656	21838.654297
1045.295898	21710.685547
1046.243164	21572.119141
1047.191406	21736.906250
1048.138672	21600.931641
1049.085938	22027.066406
1050.033203	21798.703125
1050.979492	21594.019531
1051.926758	21822.328125
1052.873047	21596.445312
1053.819336	21555.392578
1054.765625	21807.591797
1055.711914	21650.289062
1056.657227	21675.294922
1057.603516	21716.169922
1058.548828	21733.263672
1059.494141	21686.896484
1060.439453	21521.490234
1061.384766	21416.869141
1062.329102	21955.146484
1063.274414	21633.566406
1064.218750	21700.945312
1065.163086	21728.640625
1066.107422	21753.695312
1067.051758	21617.218750
1067.995117	21742.910156
1068.939453	21606.380859
1069.882812	21382.365234
1070.826172	21441.828125
1071.769531	21755.763672
1072.711914	21619.136719
1073.655273	21540.791016
1074.597656	21632.144531
1075.540039	21569.687500
1076.482422	21568.222656
1077.424805	21534.917969
1078.367188	21557.330078
1079.308594	21128.513672
1080.250000	21636.689453
1081.191406	21351.117188
1082.132812	21190.261719
1083.074219	21202.003906
1084.015625	21123.419922
1084.956055	21260.039062
1085.896484	21069.814453
1086.837891	21004.455078
1087.777344	21008.193359
1088.717773	21240.611328
1089.658203	21106.095703
1090.597656	20936.951172
1091.537109	21198.742188
1092.476562	21133.330078
1093.416016	21507.027344
1094.355469	21295.240234
1095.294922	21277.728516
1096.233398	21388.027344
1097.171875	21330.576172
1098.110352	21113.273438
1099.048828	21300.863281
1099.987305	21331.298828
1100.924805	21489.673828
1101.863281	21082.976562
1102.800781	21225.367188
1103.738281	21133.140625
1104.675781	21382.271484
1105.612305	21276.701172
1106.549805	21485.923828
1107.486328	21545.781250
1108.422852	21344.095703
1109.359375	21612.167969
1110.295898	21346.341797
1111.232422	21582.462891
1112.167969	21305.851562
1113.104492	21403.134766
1114.040039	21569.919922
1114.975586	21394.705078
1115.910156	21569.564453
1116.845703	21501.216797
1117.781250	21630.701172
1118.715820	21444.671875
1119.650391	21790.841797
1120.584961	21481.714844
1121.519531	21844.066406
1122.453125	21673.994141
1123.387695	21782.230469
1124.321289	21965.460938
1125.254883	21974.714844
1126.188477	21828.644531
1127.122070	21778.947266
1128.054688	21565.814453
1128.988281	21926.009766
1129.920898	21980.818359
1130.853516	22035.644531
1131.786133	22034.191406
1132.718750	22075.640625
1133.650391	22143.919922
1134.583008	22107.611328
1135.514648	22068.607422
1136.446289	22134.236328
1137.377930	22189.152344
1138.309570	22080.349609
1139.240234	22049.363281
1140.170898	22383.546875
1141.102539	22081.351562
1142.033203	22168.535156
1142.963867	21917.238281
1143.893555	22600.951172
1144.824219	21941.132812
1145.753906	22318.656250
1146.683594	22298.414062
1147.614258	22272.787109
1148.542969	22292.869141
1149.472656	22097.763672
1150.402344	22389.552734
1151.331055	22062.539062
1152.259766	22144.496094
1153.188477	22218.406250
1154.117188	22698.880859
1155.045898	22059.324219
1155.973633	22055.150391
1156.902344	22314.960938
1157.830078	22359.324219
1158.757812	22212.378906
1159.685547	22062.687500
1160.612305	22036.939453
1161.540039	22248.441406
1162.466797	22015.078125
1163.393555	22188.890625
1164.320312	22427.503906
1165.247070	22245.308594
1166.173828	22206.068359
1167.099609	22428.615234
1168.026367	22189.630859
1168.952148	22196.255859
1169.877930	22740.267578
1170.803711	22574.132812
1171.728516	22488.978516
1172.654297	22357.863281
1173.579102	22423.970703
1174.503906	22692.810547
1175.428711	22621.130859
1176.353516	22241.195312
1177.278320	22345.185547
1178.202148	22173.328125
1179.126953	22420.714844
1180.050781	22313.744141
1180.974609	22504.414062
1181.898438	22191.714844
1182.821289	22182.099609
1183.745117	22150.820312
1184.667969	22306.386719
1185.590820	22147.814453
1186.513672	22425.339844
1187.436523	22402.205078
1188.359375	22032.183594
1189.281250	22033.365234
1190.204102	22080.630859
1191.125977	22206.544922
1192.047852	21960.970703
1192.968750	22103.179688
1193.890625	21938.886719
1194.812500	22016.019531
1195.733398	22136.599609
1196.654297	22099.792969
1197.575195	21769.777344
1198.496094	22036.998047
1199.416992	21975.710938
1200.336914	22237.628906
1201.256836	21907.400391
1202.177734	22117.771484
1203.097656	22051.013672
1204.016602	22111.984375
1204.936523	21569.445312
1205.855469	21668.417969
1206.775391	21824.537109
1207.694336	21983.427734
1208.613281	21745.179688
1209.532227	21819.759766
1210.450195	21864.429688
1211.369141	22156.814453
1212.287109	21855.806641
1213.205078	22036.650391
1214.123047	21909.810547
1215.041016	21970.875000
1215.958984	22075.548828
1216.875977	21937.748047
1217.793945	22001.572266
1218.710938	22016.351562
1219.627930	22132.009766
1220.544922	21975.029297
1221.460938	22000.720703
1222.377930	22040.056641
1223.293945	21850.236328
1224.210938	21772.224609
1225.126953	21978.017578
1226.041992	21504.201172
1226.958008	22165.949219
1227.874023	22074.281250
1228.789062	21837.832031
1229.704102	22005.572266
1230.619141	21861.916016
1231.534180	22016.054688
1232.449219	22110.119141
1233.363281	22196.017578
1234.278320	22109.703125
1235.192383	22269.458984
1236.106445	21704.509766
1237.020508	21894.337891
1237.933594	22138.951172
1238.847656	22383.648438
1239.760742	22190.531250
1240.674805	22279.294922
1241.587891	22047.759766
1242.500000	22199.507812
1243.413086	22055.517578
1244.326172	22158.009766
1245.238281	22329.033203
1246.150391	22439.830078
1247.062500	22166.962891
1247.974609	22425.792969
1248.886719	22476.343750
1249.798828	22450.130859
1250.709961	22325.173828
1251.621094	22551.292969
1252.532227	22599.154297
1253.443359	22276.578125
1254.354492	22332.640625
1255.265625	22342.056641
1256.175781	22255.378906
1257.085938	22588.812500
1257.996094	22227.496094
1258.906250	22371.498047
1259.816406	22427.630859
1260.726562	22390.349609
1261.635742	22267.855469
1262.544922	22296.507812
1263.454102	22341.664062
1264.363281	22087.097656
1265.272461	22170.738281
1266.181641	22438.712891
1267.089844	22481.171875
1267.999023	22402.564453
1268.907227	22370.716797
1269.815430	22396.666016
1270.722656	22439.142578
1271.630859	22448.589844
1272.539062	22493.843750
1273.446289	22081.828125
1274.353516	22270.300781
1275.260742	22337.589844
1276.167969	22586.808594
1277.074219	22169.003906
1277.981445	22586.462891
1278.887695	22265.027344
1279.793945	22318.578125
1280.701172	22457.664062
1281.606445	22384.347656
1282.512695	22272.373047
1283.418945	22566.082031
1284.324219	22412.689453
1285.229492	22469.078125
1286.134766	22423.310547
1287.040039	22791.824219
1287.945312	22762.669922
1288.849609	22379.847656
1289.754883	22367.189453
1290.659180	22879.669922
1291.563477	23091.009766
1292.467773	22669.263672
1293.372070	22421.587891
1294.275391	22621.892578
1295.179688	23156.992188
1296.083008	23105.712891
1296.986328	23087.623047
1297.889648	23409.962891
1298.792969	23253.503906
1299.695312	23124.675781
1300.598633	22782.570312
1301.500977	23271.261719
1302.403320	23397.226562
1303.305664	23223.998047
1304.208008	23131.074219
1305.109375	23010.398438
1306.011719	23433.021484
1306.913086	23237.494141
1307.814453	23055.761719
1308.715820	23112.496094
1309.617188	23138.734375
1310.518555	23242.667969
1311.418945	23074.681641
1312.320312	22934.390625
1313.220703	22991.148438
1314.121094	22470.406250
1315.021484	23043.625000
1315.920898	22689.359375
1316.821289	22721.107422
1317.720703	22977.921875
1318.621094	22909.687500
1319.520508	22663.544922
1320.418945	22798.166016
1321.318359	22485.185547
1322.217773	22277.767578
1323.116211	22264.974609
1324.014648	22524.798828
1324.913086	22439.701172
1325.811523	22429.708984
1326.709961	22411.363281
1327.608398	22557.255859
1328.505859	22171.394531
1329.403320	22442.609375
1330.301758	22298.912109
1331.199219	22564.669922
1332.095703	22646.626953
1332.993164	22260.439453
1333.889648	22331.222656
1334.787109	22312.822266
1335.683594	22155.003906
1336.580078	22289.941406
1337.476562	22371.929688
1338.372070	22386.996094
1339.268555	22452.289062
1340.164062	22693.412109
1341.060547	22169.853516
1341.956055	22469.634766
1342.850586	22306.031250
1343.746094	22488.650391
1344.641602	22009.375000
1345.536133	22390.345703
1346.430664	22531.162109
1347.325195	22174.599609
1348.219727	22114.183594
1349.114258	22235.453125
1350.008789	22488.175781
1350.902344	22259.992188
1351.795898	22336.595703
1352.690430	22488.757812
1353.583008	22531.851562
1354.476562	22594.548828
1355.370117	22480.935547
1356.262695	22560.439453
1357.156250	22292.783203
1358.048828	22271.466797
1358.941406	22227.736328
1359.833984	22055.125000
1360.725586	21994.527344
1361.618164	21877.861328
1362.509766	22033.027344
1363.401367	22084.525391
1364.293945	22335.107422
1365.184570	22008.093750
1366.076172	22059.611328
1366.967773	21701.574219
1367.858398	21848.449219
1368.749023	21925.218750
1369.639648	21878.517578
1370.530273	21520.197266
1371.420898	21683.984375
1372.311523	21906.800781
1373.201172	22034.199219
1374.091797	21922.861328
1374.981445	21617.615234
1375.871094	21733.785156
1376.759766	21709.462891
1377.649414	21744.166016
1378.539062	21731.082031
1379.427734	21838.912109
1380.316406	21986.158203
1381.205078	21930.910156
1382.093750	21633.671875
1382.982422	21868.191406
1383.870117	21551.136719
1384.758789	21563.332031
1385.646484	21679.707031
1386.534180	21903.128906
1387.421875	21760.480469
1388.309570	21795.253906
1389.196289	21906.109375
1390.083984	21425.224609
1390.970703	21750.259766
1391.857422	21680.748047
1392.744141	21673.242188
1393.630859	21578.312500
1394.517578	21582.064453
1395.403320	21551.964844
1396.289062	21685.498047
1397.175781	22183.103516
1398.061523	21786.177734
1398.947266	22190.816406
1399.832031	22138.205078
1400.717773	22006.507812
1401.602539	21967.966797
1402.487305	22197.773438
1403.373047	21613.957031
1404.256836	22010.503906
1405.141602	22082.160156
1406.026367	22258.433594
1406.910156	21688.355469
1407.794922	21658.189453
1408.678711	21987.205078
1409.562500	21696.830078
1410.446289	21918.453125
1411.329102	22001.492188
1412.212891	22268.527344
1413.095703	22023.289062
1413.978516	22168.673828
1414.861328	22107.392578
1415.744141	22142.384766
1416.626953	21933.775391
1417.508789	22342.732422
1418.391602	22026.400391
1419.273438	22143.591797
1420.155273	21883.808594
1421.037109	22236.333984
1421.918945	22007.666016
1422.800781	22062.537109
1423.681641	21816.738281
1424.562500	21919.824219
1425.444336	21790.255859
1426.325195	21944.457031
1427.205078	22158.322266
1428.085938	21923.679688
1428.966797	22163.169922
1429.846680	21740.998047
1430.726562	22162.335938
1431.606445	21899.115234
1432.486328	22073.406250
1433.366211	21889.656250
1434.245117	22243.087891
1435.125000	22426.056641
1436.003906	22267.861328
1436.882812	22291.628906
1437.761719	22232.912109
1438.640625	22342.031250
1439.519531	22411.349609
1440.397461	22563.226562
1441.276367	22686.689453
1442.154297	22149.689453
1443.032227	22338.613281
1443.910156	22311.154297
1444.787109	22406.171875
1445.665039	22375.865234
1446.541992	22171.728516
1447.419922	22147.068359
1448.296875	21974.175781
1449.173828	22037.849609
1450.050781	22363.878906
1450.926758	22065.445312
1451.803711	22160.544922
1452.679688	22013.175781
1453.555664	21854.341797
1454.431641	22154.929688
1455.307617	21924.703125
1456.183594	21777.187500
1457.058594	21723.849609
1457.934570	21993.205078
1458.809570	21674.240234
1459.684570	21575.142578
1460.559570	21978.908203
1461.434570	21516.876953
1462.308594	21992.228516
1463.183594	21933.138672
1464.057617	21396.515625
1464.931641	21380.197266
1465.805664	21604.140625
1466.679688	21379.009766
1467.553711	21434.208984
1468.426758	21457.949219
1469.300781	21438.759766
1470.173828	21368.033203
1471.046875	21557.841797
1471.919922	21361.101562
1472.792969	21310.373047
1473.665039	21526.050781
1474.538086	21246.107422
1475.410156	21364.410156
1476.282227	20969.689453
1477.154297	20976.179688
1478.026367	21134.636719
1478.898438	21098.138672
1479.769531	21098.916016
1480.641602	21217.310547
1481.512695	20781.980469
1482.383789	20771.220703
1483.254883	20860.916016
1484.125977	20858.775391
1484.996094	20681.490234
1485.867188	20868.851562
1486.737305	20444.494141
1487.607422	20508.351562
1488.477539	20169.978516
1489.347656	20659.117188
1490.216797	20723.042969
1491.086914	20410.402344
1491.956055	20569.185547
1492.826172	20520.972656
1493.695312	20193.751953
1494.564453	20453.261719
1495.432617	20442.404297
1496.301758	20425.787109
1497.169922	20285.402344
1498.039062	20553.740234
1498.907227	20439.240234
1499.775391	20413.968750
1500.643555	20241.798828
1501.510742	20271.216797
1502.378906	20410.126953
1503.246094	20295.498047
1504.113281	20650.621094
1504.981445	20207.371094
1505.847656	20357.894531
1506.714844	20179.734375
1507.582031	20497.585938
1508.448242	20175.154297
1509.315430	20268.070312
1510.181641	20274.449219
1511.047852	20338.552734
1511.914062	20206.386719
1512.779297	20296.482422
1513.645508	20614.728516
1514.510742	20580.736328
1515.376953	20584.281250
1516.242188	20405.812500
1517.107422	20530.691406
1517.971680	20571.798828
1518.836914	20503.078125
1519.701172	20549.974609
1520.566406	20686.527344
1521.430664	20409.556641
1522.294922	20711.007812
1523.159180	20468.662109
1524.022461	20666.056641
1524.886719	20849.046875
1525.750000	20493.707031
1526.614258	20656.464844
1527.477539	20778.740234
1528.340820	20947.392578
1529.204102	20840.927734
1530.066406	20853.205078
1530.929688	20720.607422
1531.791992	20782.134766
1532.654297	21011.798828
1533.516602	20789.285156
1534.378906	20836.355469
1535.241211	21054.544922
1536.102539	21133.582031
1536.964844	20751.375000
1537.826172	20917.431641
1538.687500	21016.796875
1539.548828	21145.220703
1540.410156	21302.718750
1541.271484	21262.828125
1542.131836	20996.406250
1542.993164	20758.937500
1543.853516	21209.884766
1544.713867	21068.253906
1545.574219	20545.876953
1546.434570	21034.804688
1547.293945	20721.548828
1548.154297	21181.597656
1549.013672	21196.869141
1549.873047	21023.089844
1550.732422	21041.246094
1551.591797	21251.441406
1552.451172	21578.107422
1553.309570	21223.816406
1554.168945	21172.150391
1555.027344	21169.964844
1555.885742	21243.490234
1556.744141	21515.093750
1557.602539	21236.220703
1558.460938	21417.595703
1559.318359	21511.609375
1560.175781	21279.222656
1561.034180	21134.207031
1561.891602	21525.605469
1562.748047	21590.537109
1563.605469	21305.503906
1564.462891	21309.160156
1565.319336	21616.244141
1566.176758	21914.677734
1567.033203	21938.869141
1567.889648	21712.027344
1568.746094	21899.685547
1569.601562	21763.279297
1570.458008	21813.742188
1571.313477	22176.775391
1572.168945	21780.324219
1573.024414	22125.941406
1573.879883	21799.486328
1574.735352	22314.761719
1575.590820	22175.333984
1576.445312	22009.539062
1577.300781	22411.056641
1578.155273	21993.687500
1579.009766	22468.476562
1579.864258	22361.136719
1580.718750	22151.330078
1581.572266	22348.314453
1582.426758	22524.873047
1583.280273	22186.146484
1584.133789	22304.162109
1584.987305	22510.091797
1585.840820	22540.316406
1586.694336	22702.404297
1587.546875	22583.207031
1588.399414	22806.908203
1589.252930	22461.955078
1590.105469	22694.507812
1590.958008	23047.375000
1591.810547	23221.443359
1592.662109	23146.210938
1593.514648	23150.175781
1594.366211	22799.050781
1595.217773	22911.554688
1596.069336	23029.966797
1596.920898	23465.519531
1597.772461	23331.515625
1598.624023	23173.966797
1599.474609	23148.556641
1600.325195	23340.560547
1601.175781	23373.941406
1602.026367	23107.539062
1602.876953	23082.097656
1603.727539	23094.867188
1604.578125	23131.166016
1605.427734	23161.593750
1606.277344	22997.882812
1607.126953	23407.833984
1607.976562	23208.794922
1608.826172	23183.332031
1609.675781	23096.044922
1610.524414	22967.505859
1611.374023	22886.039062
1612.222656	22866.390625
1613.071289	22873.246094
1613.919922	22774.041016
1614.768555	22913.482422
1615.616211	23023.498047
1616.464844	23018.589844
1617.312500	22857.425781
1618.160156	22327.617188
1619.007812	22617.505859
1619.855469	22689.214844
1620.703125	22471.826172
1621.549805	22401.896484
1622.397461	22748.068359
1623.244141	22589.609375
1624.090820	22779.458984
1624.937500	22455.595703
1625.784180	22778.382812
1626.630859	22649.355469
1627.476562	22313.484375
1628.323242	22222.742188
1629.168945	22392.033203
1630.014648	22177.128906
1630.860352	22503.150391
1631.706055	22400.548828
1632.551758	22371.841797
1633.396484	22322.421875
1634.241211	22033.361328
1635.086914	22226.486328
1635.931641	22179.970703
1636.776367	22299.189453
1637.620117	21850.066406
1638.464844	22185.408203
1639.308594	21964.132812
1640.153320	22098.201172
1640.997070	22128.632812
1641.840820	21607.984375
1642.684570	21679.828125
1643.528320	21597.574219
1644.371094	21740.583984
1645.214844	21421.123047
1646.057617	21018.519531
1646.900391	21369.111328
1647.743164	21328.259766
1648.585938	21136.082031
1649.428711	21080.339844
1650.270508	21075.029297
1651.113281	20811.466797
1651.955078	20939.708984
1652.796875	20901.705078
1653.638672	20498.390625
1654.480469	20463.267578
1655.322266	20582.621094
1656.163086	20657.443359
1657.004883	20586.666016
1657.845703	20468.302734
1658.686523	20135.845703
1659.527344	20073.861328
1660.368164	20466.871094
1661.208008	20220.501953
1662.048828	20203.121094
1662.888672	19822.724609
1663.728516	20129.652344
1664.568359	20014.019531
1665.408203	19886.439453
1666.248047	19949.376953
1667.087891	19735.376953
1667.926758	19971.062500
1668.766602	19756.994141
1669.605469	19563.707031
1670.444336	19409.093750
1671.283203	19477.970703
1672.121094	19451.474609
1672.959961	19305.707031
1673.798828	19398.455078
1674.636719	19368.947266
1675.474609	19351.361328
1676.312500	19026.458984
1677.150391	18978.964844
1677.988281	19038.902344
1678.825195	19095.873047
1679.663086	19257.361328
1680.500000	18726.117188
1681.336914	18848.767578
1682.173828	18810.152344
1683.010742	18837.253906
1683.847656	18888.267578
1684.683594	18843.660156
1685.520508	18667.513672
1686.356445	18844.089844
1687.192383	18787.488281
1688.028320	18632.173828
1688.864258	18763.964844
1689.700195	18420.113281
1690.535156	18103.074219
1691.370117	18315.642578
1692.206055	18588.148438
1693.041016	18366.775391
1693.875977	18238.148438
1694.710938	18151.402344
1695.544922	18169.462891
1696.379883	18337.320312
1697.213867	18394.369141
1698.047852	18058.851562
1698.882812	18283.722656
1699.715820	18097.962891
1700.549805	18128.023438
1701.383789	17945.171875
1702.216797	18155.175781
1703.050781	18041.263672
1703.883789	18026.324219
1704.716797	18023.382812
1705.549805	18218.533203
1706.382812	18170.593750
1707.215820	18020.552734
1708.047852	18074.662109
1708.879883	17993.632812
1709.712891	17555.105469
1710.544922	17948.666016
1711.376953	17951.710938
1712.208008	17726.339844
1713.040039	17711.312500
1713.871094	17720.330078
1714.703125	17521.867188
1715.534180	17684.238281
1716.365234	17642.117188
1717.196289	17512.732422
1718.027344	17636.066406
1718.857422	17401.300781
1719.688477	17690.208984
1720.518555	17747.400391
1721.348633	17642.009766
1722.178711	17626.931641
1723.008789	17635.943359
1723.838867	17551.566406
1724.668945	17421.964844
1725.498047	17669.023438
1726.327148	17394.714844
1727.157227	17439.869141
1727.986328	17451.871094
1728.815430	17294.996094
1729.643555	17195.375000
1730.472656	17439.626953
1731.300781	17364.132812
1732.129883	17430.447266
1732.958008	17282.488281
1733.786133	17279.378906
1734.614258	17303.439453
1735.442383	17267.113281
1736.269531	16829.076172
1737.097656	17085.673828
1737.924805	17097.630859
1738.751953	17287.878906
1739.579102	17073.197266
1740.406250	17175.841797
1741.233398	17124.330078
1742.059570	16873.222656
1742.886719	17130.128906
1743.712891	17263.097656
1744.539062	17030.037109
1745.365234	16836.234375
1746.191406	16826.978516
1747.017578	17226.357422
1747.842773	16820.564453
1748.668945	16908.193359
1749.494141	17138.191406
1750.319336	17341.003906
1751.144531	16862.246094
1751.969727	17043.869141
1752.794922	16916.439453
1753.620117	17058.728516
1754.444336	17125.277344
1755.268555	16858.318359
1756.093750	16788.386719
1756.917969	16836.722656
1757.741211	17288.542969
1758.565430	16991.087891
1759.389648	17078.929688
1760.212891	16675.107422
1761.037109	16942.029297
1761.860352	16729.324219
1762.683594	16956.867188
1763.506836	16707.644531
1764.329102	16883.619141
1765.152344	16822.667969
1765.974609	16807.279297
1766.797852	16883.060547
1767.620117	16664.009766
1768.442383	16919.167969
1769.264648	16803.435547
1770.086914	16766.738281
1770.908203	16544.474609
1771.730469	16799.783203
1772.551758	16747.849609
1773.373047	16647.203125
1774.194336	16951.357422
1775.015625	17072.951172
1775.836914	16707.400391
1776.657227	16889.900391
1777.478516	17127.289062
1778.298828	16627.517578
1779.119141	16764.390625
1779.939453	16663.605469
1780.759766	16821.865234
1781.580078	16714.958984
1782.400391	16800.103516
1783.219727	16772.443359
1784.039062	16601.419922
1784.859375	16659.130859
1785.678711	16655.839844
1786.498047	16652.546875
1787.316406	16627.886719
1788.135742	16636.796875
1788.954102	16728.144531
1789.773438	16859.218750
1790.591797	16614.673828
1791.410156	16504.453125
1792.228516	16672.216797
1793.046875	16476.406250
1793.864258	16619.771484
1794.682617	16647.027344
1795.500000	16607.033203
1796.317383	16466.117188
1797.134766	16802.246094
1797.952148	16499.197266
1798.769531	16609.054688
1799.586914	16697.529297
1800.403320	16449.394531
1801.220703	16510.322266
1802.037109	16690.664062
1802.853516	16571.001953
1803.669922	16435.984375
1804.486328	16395.873047
1805.301758	16610.011719
1806.118164	16536.210938
1806.933594	16443.998047
1807.750000	16661.316406
1808.565430	16526.173828
1809.380859	16213.157227
1810.195312	16249.619141
1811.010742	16417.976562
1811.826172	16632.404297
1812.640625	16263.964844
1813.455078	16668.691406
1814.269531	16208.058594
1815.083984	16078.791992
1815.898438	16437.636719
1816.712891	16253.092773
1817.526367	16378.675781
1818.340820	16316.925781
1819.154297	16390.333984
1819.967773	16156.489258
1820.781250	16282.138672
1821.594727	16487.748047
1822.408203	16087.788086
1823.220703	16514.818359
1824.034180	16246.967773
1824.846680	16225.093750
1825.659180	16283.197266
1826.471680	16356.704102
1827.284180	16282.520508
1828.096680	16103.661133
1828.908203	16134.075195
1829.720703	16115.235352
1830.532227	16170.294922
1831.343750	16071.374023
1832.155273	16095.639648
1832.966797	15965.861328
1833.778320	16030.175781
1834.589844	16109.920898
1835.400391	16334.574219
1836.211914	16041.342773
1837.022461	16133.462891
1837.833008	16228.697266
1838.643555	16006.245117
1839.453125	15965.742188
1840.263672	15863.510742
1841.074219	15930.986328
1841.883789	16050.958008
1842.693359	16133.921875
1843.502930	16081.051758
1844.312500	15673.011719
1845.122070	16222.361328
1845.931641	15730.794922
1846.740234	15897.197266
1847.549805	15766.981445
1848.358398	15955.081055
1849.166992	15886.657227
1849.975586	15910.967773
1850.784180	15935.286133
1851.591797	16043.121094
1852.400391	15850.924805
1853.208008	16073.258789
1854.016602	15989.309570
1854.824219	15797.005859
1855.631836	15960.625000
1856.439453	15882.805664
1857.246094	16015.527344
1858.053711	15727.085938
1858.860352	15825.750977
1859.667969	15924.448242
1860.474609	15713.311523
1861.281250	15861.608398
1862.087891	15805.374023
1862.893555	15947.535156
1863.700195	15947.108398
1864.506836	15698.581055
1865.312500	15846.996094
1866.118164	15840.346680
1866.923828	15920.573242
1867.729492	15684.284180
1868.535156	15938.326172
1869.339844	15695.751953
1870.145508	15692.172852
1870.950195	15533.321289
1871.755859	15930.378906
1872.560547	15650.360352
1873.365234	15743.084961
1874.168945	15820.303711
1874.973633	15770.117188
1875.778320	15834.930664
1876.582031	16036.563477
1877.385742	15952.181641
1878.189453	15901.981445
1878.993164	15375.837891
1879.796875	15866.864258
1880.600586	15717.049805
1881.404297	15772.588867
1882.207031	15535.550781
1883.009766	15700.040039
1883.812500	15733.806641
1884.615234	15752.011719
1885.417969	15704.812500
1886.220703	15598.405273
1887.023438	15797.314453
1887.825195	15641.024414
1888.626953	15640.524414
1889.429688	15571.442383
1890.231445	15826.599609
1891.033203	15819.893555
1891.833984	15451.382812
1892.635742	15613.062500
1893.437500	15687.434570
1894.238281	15739.987305
1895.039062	15661.472656
1895.839844	15617.269531
1896.640625	15554.317383
1897.441406	15600.635742
1898.242188	15703.185547
1899.041992	15477.783203
1899.842773	15755.300781
1900.642578	15429.839844
1901.442383	15554.303711
1902.242188	15538.150391
1903.041992	15775.218750
1903.841797	15662.164062
1904.640625	15408.341797
1905.440430	15748.724609
1906.239258	15654.377930
1907.038086	15810.309570
1907.836914	15781.658203
1908.635742	15455.651367
1909.434570	15511.451172
1910.233398	15614.235352
1911.031250	15594.922852
1911.829102	15622.584961
1912.627930	15659.652344
1913.425781	15677.933594
1914.223633	15677.418945
1915.021484	15501.392578
1915.818359	15641.906250
1916.616211	15437.596680
1917.413086	15593.824219
1918.209961	15652.879883
1919.007812	15426.510742
1919.804688	15316.144531
1920.600586	15478.729492
1921.397461	15641.367188
1922.194336	15396.009766
1922.990234	15235.333008
1923.787109	15426.269531
1924.583008	15589.004883
1925.378906	15434.559570
1926.174805	15358.598633
1926.969727	15398.866211
1927.765625	15326.014648
1928.561523	15488.867188
1929.356445	15585.757812
1930.151367	15660.671875
1930.946289	15373.980469
1931.741211	15496.059570
1932.536133	15379.109375
1933.331055	15636.514648
1934.125000	15462.907227
1934.919922	15471.780273
1935.713867	15235.130859
1936.507812	15303.785156
1937.301758	15621.217773
1938.095703	15157.720703
1938.889648	15399.636719
1939.682617	15238.384766
1940.476562	15228.321289
1941.269531	15063.833984
1942.062500	15454.034180
1942.855469	15270.614258
1943.648438	15370.902344
1944.441406	15354.541992
1945.234375	15253.016602
1946.026367	15397.514648
1946.819336	15340.132812
1947.611328	15421.579102
1948.403320	15471.490234
1949.195312	15420.404297
1949.987305	15220.911133
1950.779297	15311.863281
1951.570312	15295.463867
1952.362305	15212.723633
1953.153320	15436.409180
1953.944336	15040.839844
1954.735352	15182.400391
1955.526367	15052.169922
1956.317383	14874.475586
1957.107422	15123.583008
1957.898438	14794.041016
1958.688477	14951.491211
1959.478516	14985.615234
1960.268555	15045.061523
1961.058594	15063.388672
1961.848633	15293.783203
1962.638672	15147.542969
1963.427734	15232.383789
1964.217773	15003.750000
1965.006836	15259.623047
1965.795898	15338.187500
1966.584961	15353.412109
1967.374023	14744.388672
1968.163086	15276.118164
1968.952148	15491.038086
1969.740234	15014.888672
1970.528320	15064.949219
1971.317383	15070.625000
1972.105469	15177.805664
1972.893555	15028.049805
1973.680664	14970.261719
1974.468750	14896.585938
1975.256836	15045.069336
1976.043945	15206.299805
1976.831055	14830.987305
1977.618164	14846.155273
1978.405273	14908.969727
1979.192383	15311.712891
1979.979492	15129.977539
1980.766602	14913.226562
1981.552734	15100.044922
1982.338867	14943.612305
1983.125977	15047.833984
1983.912109	14993.096680
1984.698242	14970.143555
1985.483398	14953.544922
1986.269531	14991.024414
1987.055664	14936.239258
1987.840820	15120.123047
1988.625977	14635.627930
1989.411133	14978.700195
1990.196289	14892.033203
1990.981445	14865.843750
1991.766602	14967.051758
1992.551758	14692.381836
1993.335938	15042.118164
1994.120117	14840.663086
1994.905273	14894.123047
1995.689453	14794.585938
1996.473633	14761.969727
1997.256836	14923.862305
1998.041016	14884.876953
1998.825195	15040.462891
1999.608398	14924.911133
2000.391602	14921.005859
2001.174805	14830.927734
2001.958008	15005.757812
2002.741211	14867.774414
2003.524414	14873.433594
2004.307617	14764.123047
2005.089844	14600.475586
2005.872070	15011.816406
2006.654297	14806.617188
2007.437500	14531.042969
2008.218750	14731.621094
2009.000977	14817.180664
2009.783203	14835.624023
2010.564453	14911.633789
2011.346680	14888.518555
2012.127930	14686.255859
2012.909180	14682.291016
2013.690430	14697.524414
2014.471680	14664.754883
2015.252930	14571.153320
2016.034180	14730.445312
2016.814453	14854.566406
2017.594727	14767.353516
2018.375977	14958.787109
2019.156250	14580.025391
2019.936523	14524.764648
2020.715820	14360.522461
2021.496094	14792.410156
2022.276367	14692.274414
2023.055664	15082.675781
2023.834961	14491.900391
2024.614258	14673.915039
2025.393555	14538.403320
2026.172852	14681.983398
2026.952148	14565.681641
2027.731445	14574.511719
2028.509766	14467.782227
2029.289062	14569.706055
2030.067383	14556.061523
2030.845703	14609.857422
2031.624023	14734.338867
2032.402344	14402.654297
2033.179688	14469.302734
2033.958008	14812.358398
2034.735352	14586.592773
2035.513672	14688.666992
2036.291016	14549.620117
2037.068359	14683.879883
2037.845703	14557.650391
2038.623047	14424.945312
2039.399414	14324.371094
2040.176758	14384.665039
2040.953125	14483.601562
2041.729492	14321.822266
2042.506836	14510.929688
2043.283203	14423.164062
2044.058594	14312.824219
2044.834961	14721.066406
2045.611328	14427.097656
2046.386719	14336.036133
2047.162109	14412.530273
2047.938477	14308.541992
2048.713867	14552.699219
2049.489258	14513.187500
2050.263672	14370.461914
2051.039062	14076.090820
2051.814453	14284.882812
2052.588867	14335.641602
2053.363281	14615.541016
2054.138672	14514.670898
2054.913086	14316.922852
2055.686523	14403.234375
2056.460938	14289.361328
2057.235352	14055.948242
2058.008789	14148.717773
2058.783203	14086.438477
2059.556641	14547.618164
2060.330078	14333.483398
2061.103516	14271.201172
2061.876953	14079.580078
2062.650391	14376.153320
2063.422852	13974.272461
2064.196289	13995.986328
2064.968750	14337.982422
2065.741211	14172.095703
2066.513672	14210.033203
2067.286133	14124.987305
2068.058594	14250.333984
2068.831055	13789.683594
2069.602539	13843.771484
2070.374023	13820.145508
2071.146484	14188.475586
2071.917969	14061.219727
2072.689453	14329.255859
2073.460938	14088.545898
2074.232422	14061.696289
2075.002930	14067.257812
2075.774414	13933.389648
2076.544922	14165.949219
2077.315430	14041.783203
2078.085938	14112.226562
2078.856445	13962.050781
2079.626953	13883.221680
2080.397461	14210.089844
2081.167969	13689.773438
2081.937500	14058.926758
2082.707031	14019.027344
2083.476562	13995.355469
2084.247070	13952.183594
2085.015625	13876.506836
2085.785156	13914.538086
2086.554688	14040.334961
2087.323242	13818.355469
2088.092773	13911.665039
2088.861328	13972.487305
2089.629883	14153.661133
2090.398438	13889.267578
2091.166992	14034.700195
2091.935547	13753.928711
2092.704102	13827.790039
2093.471680	14025.362305
2094.240234	13799.791016
2095.007812	13743.456055
2095.775391	13862.954102
2096.542969	13757.753906
2097.310547	13805.625977
2098.077148	14035.966797
2098.844727	13725.447266
2099.612305	13747.261719
2100.378906	13723.446289
2101.145508	13810.472656
2101.912109	13956.220703
2102.678711	13580.203125
2103.445312	13523.724609
2104.211914	13542.261719
2104.977539	13942.569336
2105.744141	13638.096680
2106.509766	13764.373047
2107.275391	13711.140625
2108.041016	13742.782227
2108.806641	13402.151367
2109.572266	13587.261719
2110.337891	13305.292969
2111.102539	13591.731445
2111.868164	13603.770508
2112.632812	13740.008789
2113.397461	13585.362305
2114.162109	13558.171875
2114.926758	13782.756836
2115.691406	13729.424805
2116.455078	13944.297852
2117.219727	13570.362305
2117.983398	13664.211914
2118.747070	13709.001953
2119.511719	13717.800781
2120.275391	13841.182617
2121.038086	13548.776367
2121.801758	13567.376953
2122.565430	13523.751953
2123.328125	13519.422852
2124.091797	13695.291992
2124.854492	13782.742188
2125.617188	13771.896484
2126.379883	13623.371094
2127.142578	13894.449219
2127.904297	13985.266602
2128.666992	13669.441406
2129.428711	14209.631836
2130.191406	13890.457031
2130.953125	13840.238281
2131.714844	13881.892578
2132.476562	13969.511719
2133.238281	13919.280273
2133.999023	14125.135742
2134.760742	13963.257812
2135.521484	13965.549805
2136.283203	13928.422852
2137.043945	13897.853516
2137.804688	13584.670898
2138.565430	13504.734375
2139.326172	13996.738281
2140.085938	13887.252930
2140.846680	13738.272461
2141.606445	13270.231445
2142.366211	13755.938477
2143.126953	13406.180664
2143.886719	13339.281250
2144.646484	13545.507812
2145.405273	13606.976562
2146.165039	13391.934570
2146.923828	13364.498047
2147.683594	13366.690430
2148.442383	13375.469727
2149.201172	13446.840820
2149.959961	13488.582031
2150.718750	13385.345703
2151.477539	13255.708008
2152.235352	13218.325195
2152.994141	13269.945312
2153.751953	13156.710938
2154.510742	13297.381836
2155.268555	13174.218750
2156.026367	13093.901367
2156.783203	13148.840820
2157.541016	13230.198242
2158.298828	13225.764648
2159.055664	12835.088867
2159.813477	13068.313477
2160.570312	13225.662109
2161.327148	13221.223633
2162.083984	12916.175781
2162.840820	13047.144531
2163.596680	13042.672852
2164.353516	13091.079102
2165.110352	13156.028320
2165.866211	13138.345703
2166.622070	13024.765625
2167.377930	12848.312500
2168.133789	12979.416016
2168.889648	12816.128906
2169.645508	12818.227539
2170.400391	12694.571289
2171.156250	12835.664062
2171.911133	12804.661133
2172.666016	12962.372070
2173.420898	13007.542969
2174.175781	12777.829102
2174.930664	12614.291016
2175.685547	12854.900391
2176.439453	12827.180664
2177.194336	12656.941406
2177.948242	12738.565430
2178.702148	12717.442383
2179.456055	12779.208008
2180.209961	12927.218750
2180.963867	12693.833008
2181.717773	12649.464844
2182.470703	12595.127930
2183.224609	12696.743164
2183.977539	12572.694336
2184.730469	12697.577148
2185.483398	12573.486328
2186.236328	12492.524414
2186.989258	12444.748047
2187.741211	12599.585938
2188.494141	12661.447266
2189.246094	12500.696289
2189.999023	12715.438477
2190.750977	12591.206055
2191.502930	12506.826172
2192.254883	12548.771484
2193.006836	12361.262695
2193.757812	12582.808594
2194.509766	12501.697266
2195.260742	12380.631836
2196.011719	12442.554688
2196.763672	12497.840820
2197.514648	12286.834961
2198.265625	12392.053711
2199.015625	12234.240234
2199.766602	12469.373047
2200.517578	12348.161133
2201.267578	12100.309570
2202.017578	12675.411133
2202.767578	12457.524414
2203.517578	12379.561523
2204.267578	12211.560547
2205.017578	12036.836914
2205.767578	12275.576172
2206.516602	12170.847656
2207.266602	12406.349609
2208.015625	12274.915039
2208.764648	12213.515625
2209.513672	12285.597656
2210.262695	12280.926758
2211.011719	12089.288086
2211.759766	12024.476562
2212.508789	12173.387695
2213.256836	12295.625000
2214.005859	12437.946289
2214.753906	12236.150391
2215.501953	12405.243164
2216.250000	12196.690430
2216.997070	12008.127930
2217.745117	11983.337891
2218.493164	12048.830078
2219.240234	12144.446289
2219.987305	11959.094727
2220.734375	12211.975586
2221.481445	12016.536133
2222.228516	11901.355469
2222.975586	11866.474609
2223.722656	11898.541016
2224.468750	12057.858398
2225.215820	12043.079102
2225.961914	11971.351562
2226.708008	12170.959961
2227.454102	12099.228516
2228.200195	12057.634766
2228.946289	12119.930664
2229.692383	12064.916992
2230.437500	11862.359375
2231.182617	12058.789062
2231.928711	11976.905273
2232.673828	11988.919922
2233.418945	11974.097656
2234.164062	11905.581055
2234.909180	11575.263672
2235.653320	11953.095703
2236.398438	11938.256836
2237.142578	12064.437500
2237.887695	11982.444336
2238.631836	11846.682617
2239.375977	11835.173828
2240.120117	11712.783203
2240.863281	11842.388672
2241.607422	12130.004883
2242.351562	11799.182617
2243.094727	12110.419922
2243.837891	11772.759766
2244.582031	11963.016602
2245.325195	11954.872070
2246.068359	11835.702148
2246.810547	11931.844727
2247.553711	11859.747070
2248.296875	11851.578125
2249.039062	11840.041016
2249.781250	11926.143555
2250.523438	11924.715820
2251.266602	12014.228516
2252.007812	11955.545898
2252.750000	11913.689453
2253.492188	11760.616211
2254.234375	12018.675781
2254.975586	11673.427734
2255.716797	11709.040039
2256.458984	11852.568359
2257.200195	11679.123047
2257.941406	11846.303711
2258.681641	11666.052734
2259.422852	11829.910156
2260.164062	11744.089844
2260.904297	11830.380859
2261.644531	11606.123047
2262.385742	11716.053711
2263.125977	11728.088867
2263.866211	11713.107422
2264.606445	11644.072266
2265.345703	11754.078125
2266.085938	11847.224609
2266.825195	11849.149414
2267.565430	11807.131836
2268.304688	11853.000000
2269.043945	11469.454102
2269.783203	11569.391602
2270.522461	11845.247070
2271.261719	11742.298828
2272.000000	11612.248047
2272.739258	11478.771484
2273.477539	11737.866211
2274.215820	11797.320312
2274.954102	11687.506836
2275.692383	11523.477539
2276.430664	11738.717773
2277.168945	11645.777344
2277.907227	11769.632812
2278.644531	11510.630859
2279.381836	11465.052734
2280.120117	11510.978516
2280.857422	11604.378906
2281.594727	11416.384766
2282.332031	11533.539062
2283.069336	11420.090820
2283.805664	11404.981445
2284.542969	11495.046875
2285.279297	11598.713867
2286.015625	11573.444336
2286.752930	11629.633789
2287.489258	11410.840820
2288.224609	11388.921875
2288.960938	11441.711914
2289.697266	11582.833008
2290.432617	11428.436523
2291.168945	11355.538086
2291.904297	11404.956055
2292.639648	11478.182617
2293.375000	11520.837891
2294.110352	11281.302734
2294.845703	11470.164062
2295.581055	11400.599609
2296.315430	11375.234375
2297.050781	11571.004883
2297.785156	11378.921875
2298.519531	11462.446289
2299.253906	11215.819336
2299.988281	11292.535156
2300.722656	11396.514648
